Folder: Stocker/Data

Note: Data/AAPL.json
{"ROIC":{"2012-09":42.01,"2013-09":26.08,"2014-09":26.2,"2015-09":31.32,"2016-09":21.95,"2017-09":19.86,"2018-09":24.41,"2019-09":25.75,"2020-09":30.11,"2021-09":51.7,"TTM":53.9},"FCFPS":{"2012-09":1.58,"2013-09":1.61,"2014-09":1.93,"2015-09":2.96,"2016-09":2.24,"2017-09":2.41,"2018-09":2.88,"2019-09":3.07,"2020-09":4.04,"2021-09":5.57,"TTM":0.0}}

Note: Data/AMD.json
{"ROIC":{"2012-12":-33.0,"2013-12":1.11,"2014-12":-11.59,"2015-12":0.0,"2016-12":-23.31,"2017-12":6.62,"2018-12":18.23,"2019-12":13.62,"2020-12":50.98,"2021-12":42.92,"TTM":10.57},"FCFPS":{"2012-12":-0.64,"2013-12":-0.72,"2014-12":-0.38,"2015-12":-0.33,"2016-12":-0.16,"2017-12":-0.23,"2018-12":0.16,"2019-12":-0.04,"2020-12":0.58,"2021-12":2.42,"TTM":0.0}}

Note: Data/AMZN.json
{"ROIC":{"2012-12":-0.05,"2013-12":2.55,"2014-12":-0.68,"2015-12":3.31,"2016-12":8.42,"2017-12":7.09,"2018-12":14.7,"2019-12":11.72,"2020-12":14.71,"2021-12":15.98,"TTM":10.45},"FCFPS":{"2012-12":0.87,"2013-12":0.84,"2014-12":2.33,"2015-12":11.41,"2016-12":17.76,"2017-12":14.71,"2018-12":26.78,"2019-12":39.92,"2020-12":48.5,"2021-12":-4.42,"TTM":0.0}}

Note: Data/BYND.json
{"ROIC":{"2012-12":0.0,"2013-12":0.0,"2014-12":0.0,"2015-12":0.0,"2016-12":0.0,"2017-12":0.0,"2018-12":0.0,"2019-12":-3.89,"2020-12":-12.37,"2021-12":-21.15,"TTM":-19.42},"FCFPS":{"2012-12":0.0,"2013-12":0.0,"2014-12":0.0,"2015-12":0.0,"2016-12":0.0,"2017-12":0.0,"2018-12":0.0,"2019-12":-0.89,"2020-12":-1.95,"2021-12":-4.95,"TTM":0.0}}

Note: Data/COST.json
{"ROIC":{"2012-08":12.46,"2013-08":14.04,"2014-08":12.63,"2015-08":13.69,"2016-08":14.18,"2017-08":15.78,"2018-08":17.44,"2019-08":17.09,"2020-08":16.06,"2021-08":18.19,"TTM":20.6},"FCFPS":{"2012-08":3.59,"2013-08":3.74,"2014-08":4.98,"2015-08":2.97,"2016-08":4.27,"2017-08":4.88,"2018-08":7.62,"2019-08":5.81,"2020-08":8.89,"2021-08":15.56,"TTM":0.0}}

Note: Data/CRM.json
{"ROIC":{"2013-01":-10.02,"2014-01":-4.38,"2015-01":-3.83,"2016-01":-0.19,"2017-01":2.55,"2018-01":1.44,"2019-01":7.68,"2020-01":0.43,"2021-01":9.3,"2022-01":2.41,"TTM":2.41},"FCFPS":{"2013-01":0.93,"2014-01":1.03,"2015-01":1.17,"2016-01":1.14,"2017-01":2.14,"2018-01":2.55,"2019-01":3.33,"2020-01":4.1,"2021-01":3.86,"2022-01":5.73,"TTM":0.0}}

Note: Data/DIS.json
{"ROIC":{"2012-09":11.18,"2013-09":11.02,"2014-09":12.5,"2015-09":13.9,"2016-09":15.26,"2017-09":14.21,"2018-09":19.24,"2019-09":11.5,"2020-09":-1.28,"2021-09":2.35,"TTM":2.7},"FCFPS":{"2012-09":2.56,"2013-09":3.03,"2014-09":3.48,"2015-09":3.82,"2016-09":4.71,"2017-09":5.4,"2018-09":6.48,"2019-09":2.31,"2020-09":1.86,"2021-09":0.77,"TTM":0.0}}

Note: Data/GE.json
{"ROIC":{"2012-12":4.4,"2013-12":4.33,"2014-12":4.71,"2015-12":-1.03,"2016-12":5.09,"2017-12":-1.49,"2018-12":-11.54,"2019-12":-2.46,"2020-12":7.51,"2021-12":-7.54,"TTM":-3.56},"FCFPS":{"2012-12":12.27,"2013-12":10.54,"2014-12":11.46,"2015-12":8.69,"2016-12":-2.34,"2017-12":-1.83,"2018-12":-0.55,"2019-12":1.78,"2020-12":2.4,"2021-12":1.47,"TTM":0.0}}

Note: Data/HD.json
{"ROIC":{"2013-01":17.18,"2014-01":20.89,"2015-01":24.77,"2016-01":27.66,"2017-01":30.76,"2018-01":32.79,"2019-01":0.0,"2020-01":0.0,"2021-01":34.21,"2022-01":38.16,"TTM":38.16},"FCFPS":{"2013-01":3.32,"2014-01":4.24,"2015-01":4.74,"2016-01":6.04,"2017-01":6.7,"2018-01":8.18,"2019-01":8.73,"2020-01":9.99,"2021-01":16.71,"2022-01":11.36,"TTM":0.0}}

Note: Data/INTC.json
{"ROIC":{"2012-12":18.66,"2013-12":14.27,"2014-12":16.62,"2015-12":15.12,"2016-12":12.24,"2017-12":10.38,"2018-12":21.43,"2019-12":20.3,"2020-12":18.93,"2021-12":16.17,"TTM":18.74},"FCFPS":{"2012-12":1.36,"2013-12":2.0,"2014-12":1.91,"2015-12":2.47,"2016-12":2.16,"2017-12":2.42,"2018-12":3.03,"2019-12":3.25,"2020-12":4.73,"2021-12":4.23,"TTM":0.0}}

Note: Data/KO.json
{"ROIC":{"2012-12":14.27,"2013-12":12.58,"2014-12":9.86,"2015-12":10.63,"2016-12":9.53,"2017-12":2.02,"2018-12":10.58,"2019-12":15.11,"2020-12":13.89,"2021-12":16.92,"TTM":16.88},"FCFPS":{"2012-12":1.72,"2013-12":1.79,"2014-12":1.85,"2015-12":1.94,"2016-12":1.47,"2017-12":1.41,"2018-12":1.28,"2019-12":1.9,"2020-12":1.69,"2021-12":2.7,"TTM":0.0}}

Note: Data/MA.json
{"ROIC":{"2012-12":42.98,"2013-12":43.09,"2014-12":42.09,"2015-12":43.81,"2016-12":40.96,"2017-12":36.89,"2018-12":51.99,"2019-12":64.76,"2020-12":39.41,"2021-12":44.94,"TTM":47.13},"FCFPS":{"2012-12":2.17,"2013-12":2.92,"2014-12":3.02,"2015-12":2.9,"2016-12":3.74,"2017-12":4.01,"2018-12":5.79,"2019-12":5.71,"2020-12":7.14,"2021-12":7.83,"TTM":0.0}}

Note: README.md
Intrinsic value is calculated based on this online tutorial:
https://medium.com/popularengineering/how-to-calculate-the-intrinsic-value-of-stocks-like-warren-buffett-f9b97e3738ba

File: TGA.csv
,FCFPS,ROIC
2009-12,0.0,-3.19
2010-12,-0.22,14.63
2011-12,-0.15,24.28
2012-12,0.57,19.67
2013-12,0.94,11.28
2014-12,0.22,2.78
2015-12,1.27,-20.16
2016-12,-0.32,-19.08
2017-12,-0.89,-26.01
2018-12,0.99,6.78
TTM,0.0,14.58